{
  "resourceType": "Bundle",
  "id": "father",
  "implicitRules": "2.16.840.1.113883.1.3",
  "language": "it-IT",
  "identifier": {
    "system": "urn:oid:2.16.840.1.113883.2.9.2.120.4.4",
    "value": "030702.TSTSMN63A01F205H.20220325112426.OQlvTq1J"
  },
  "type": "transaction",
  "entry": [ {
    "fullUrl": "https://example.com/base/Patient/2.16.840.1.113883.2.9.4.3.2-4c39ef12-5dfb-4f4c-aa38-3af70e5ac60b",
    "resource": {
      "resourceType": "Patient",
      "id": "2.16.840.1.113883.2.9.4.3.2-4c39ef12-5dfb-4f4c-aa38-3af70e5ac60b",
      "text": {
        "status": "generated",
        "div": "<div xmlns=\"http://www.w3.org/1999/xhtml\"><div class=\"hapiHeaderText\">Mario <b>ROSSI </b></div><table class=\"hapiPropertyTable\"><tbody><tr><td>Identifier</td><td>4c39ef12-5dfb-4f4c-aa38-3af70e5ac60b</td></tr><tr><td>Address</td><td><span>Via Aurora 12 </span><br/><span>Roma </span><span>120 </span><span>100 </span></td></tr><tr><td>Date of birth</td><td><span>20 December 1981</span></td></tr></tbody></table></div>"
      },
      "extension": [ {
        "url": "http://hl7.org/fhir/StructureDefinition/patient-birthPlace",
        "valueAddress": {
          "use": "home",
          "city": "Roma",
          "country": "100"
        }
      } ],
      "identifier": [ {
        "system": "urn:oid:2.16.840.1.113883.2.9.4.3.2",
        "value": "4c39ef12-5dfb-4f4c-aa38-3af70e5ac60b",
        "assigner": {
          "display": "MEF"
        }
      } ],
      "name": [ {
        "family": "Rossi",
        "given": [ "Mario" ]
      } ],
      "telecom": [ {
        "system": "email",
        "value": "mario.rossi@gmail.com",
        "use": "home"
      }, {
        "system": "phone",
        "value": "+39333224456",
        "use": "mobile"
      } ],
      "gender": "male",
      "birthDate": "1981-12-20",
      "address": [ {
        "use": "home",
        "line": [ "Via Aurora 12" ],
        "city": "Roma",
        "district": "RM",
        "state": "120",
        "postalCode": "00187",
        "country": "100"
      }, {
        "use": "home",
        "line": [ "Via Canevari 12B" ],
        "city": "Roma",
        "district": "RM",
        "state": "120",
        "postalCode": "00138",
        "country": "100"
      } ]
    },
    "request": {
      "method": "PUT",
      "url": "Patient?identifier=urn:oid:2.16.840.1.113883.2.9.4.3.2|4c39ef12-5dfb-4f4c-aa38-3af70e5ac60b"
    }
  }, {
    "fullUrl": "https://example.com/base/Organization/2.16.840.1.113883.2.9.4.1.1-8dd0be46-5301-44ad-90de-f0e1e6300d4e",
    "resource": {
      "resourceType": "Organization",
      "id": "2.16.840.1.113883.2.9.4.1.1-8dd0be46-5301-44ad-90de-f0e1e6300d4e",
      "identifier": [ {
        "system": "urn:oid:2.16.840.1.113883.2.9.4.1.1",
        "value": "8dd0be46-5301-44ad-90de-f0e1e6300d4e",
        "assigner": {
          "display": "Ministero della Salute"
        }
      } ]
    },
    "request": {
      "method": "PUT",
      "url": "Organization?identifier=urn:oid:2.16.840.1.113883.2.9.4.1.1|8dd0be46-5301-44ad-90de-f0e1e6300d4e"
    }
  }, {
    "fullUrl": "https://example.com/base/Practitioner/2.16.840.1.113883.2.9.4.3.2-d4e85d49-db42-40fb-a307-44871c9f8371",
    "resource": {
      "resourceType": "Practitioner",
      "id": "2.16.840.1.113883.2.9.4.3.2-d4e85d49-db42-40fb-a307-44871c9f8371",
      "identifier": [ {
        "system": "urn:oid:2.16.840.1.113883.2.9.4.3.2",
        "value": "d4e85d49-db42-40fb-a307-44871c9f8371",
        "assigner": {
          "display": "MEF"
        }
      } ],
      "name": [ {
        "family": "Bianchi",
        "given": [ "Francesco" ],
        "prefix": [ "Specialista" ]
      }, {
        "text": "###PRIOR###LEGALAUTHENTICATOR_ASSIGNEDENTITY_ASSIGNEDPERSON###PRIOR###"
      } ],
      "telecom": [ {
        "system": "email",
        "value": "francesco.bianchi@gmail.com",
        "use": "work"
      }, {
        "system": "phone",
        "value": "+393441834678",
        "use": "work"
      } ],
      "address": [ {
        "line": [ "Via Milano 7" ],
        "city": "Roma",
        "district": "RM",
        "state": "120",
        "postalCode": "00184",
        "country": "100"
      } ]
    },
    "request": {
      "method": "PUT",
      "url": "Practitioner?identifier=urn:oid:2.16.840.1.113883.2.9.4.3.2|d4e85d49-db42-40fb-a307-44871c9f8371"
    }
  }, {
    "fullUrl": "https://example.com/base/DiagnosticReport/diagnostic-report",
    "resource": {
      "resourceType": "DiagnosticReport",
      "id": "diagnostic-report",
      "text": {
        "status": "generated",
        "div": "<div xmlns=\"http://www.w3.org/1999/xhtml\"><div class=\"hapiHeaderText\"> xxxx </div><table class=\"hapiPropertyTable\"><tbody><tr><td>Status</td><td>FINAL</td></tr></tbody></table><table class=\"hapiTableOfValues\"><thead><tr><td>Name</td><td>Value</td><td>Interpretation</td><td>Reference Range</td><td>Status</td></tr></thead><tbody><tr class=\"hapiTableOfValuesRowOdd\"><td> ? </td><td/><td/><td/><td>FINAL</td></tr><tr class=\"hapiTableOfValuesRowEven\"><td> ? </td><td/><td/><td/><td>FINAL</td></tr></tbody></table></div>"
      },
      "status": "final",
      "code": {
        "coding": [ {
          "system": "urn:oid:2.16.840.1.113883.6.1",
          "code": "xxx",
          "display": "xxxx"
        } ]
      },
      "subject": {
        "reference": "Patient/2.16.840.1.113883.2.9.4.3.2-4c39ef12-5dfb-4f4c-aa38-3af70e5ac60b"
      },
      "encounter": {
        "reference": "Encounter/encounter"
      },
      "effectiveDateTime": "2022-03-22T22:12:21+01:00",
      "result": [ {
        "reference": "Observation/observation-entry1"
      }, {
        "reference": "Observation/observation-entry2"
      } ]
    },
    "request": {
      "method": "POST",
      "url": "DiagnosticReport"
    }
  }, {
    "fullUrl": "https://example.com/base/Practitioner/2.16.840.1.113883.2.9.4.3.2-7638a565-ca9b-4fc3-b924-eacd8906a3ed",
    "resource": {
      "resourceType": "Practitioner",
      "id": "2.16.840.1.113883.2.9.4.3.2-7638a565-ca9b-4fc3-b924-eacd8906a3ed",
      "identifier": [ {
        "system": "urn:oid:2.16.840.1.113883.2.9.4.3.2",
        "value": "7638a565-ca9b-4fc3-b924-eacd8906a3ed",
        "assigner": {
          "display": "MEF"
        }
      } ],
      "name": [ {
        "family": "Bianchi",
        "given": [ "Francesco" ],
        "prefix": [ "Specialista" ]
      }, {
        "text": "###PRIOR###ASSIGNEDAUTHOR_ASSIGNEDPERSON###PRIOR###"
      } ],
      "telecom": [ {
        "system": "email",
        "value": "francesco.bianchi@gmail.com",
        "use": "work"
      }, {
        "system": "phone",
        "value": "+393441834678",
        "use": "work"
      } ],
      "address": [ {
        "line": [ "Via Milano 7" ],
        "city": "Roma",
        "district": "RM",
        "state": "120",
        "postalCode": "00184",
        "country": "100"
      } ]
    },
    "request": {
      "method": "PUT",
      "url": "Practitioner?identifier=urn:oid:2.16.840.1.113883.2.9.4.3.2|7638a565-ca9b-4fc3-b924-eacd8906a3ed"
    }
  }, {
    "fullUrl": "https://example.com/base/Organization/2.16.840.1.113883.2.9.4.1.3-0fc149a1-c281-4ee9-ad1d-bac00d805811",
    "resource": {
      "resourceType": "Organization",
      "id": "2.16.840.1.113883.2.9.4.1.3-0fc149a1-c281-4ee9-ad1d-bac00d805811",
      "identifier": [ {
        "system": "urn:oid:2.16.840.1.113883.2.9.4.1.3",
        "value": "0fc149a1-c281-4ee9-ad1d-bac00d805811",
        "assigner": {
          "display": "Ministero della Salute"
        }
      } ],
      "name": "Nuovo Ospedale S.Agostino (MO)",
      "partOf": {
        "reference": "Organization/2.16.840.1.113883.2.9.4.1.1-8dd0be46-5301-44ad-90de-f0e1e6300d4e"
      }
    },
    "request": {
      "method": "PUT",
      "url": "Organization?identifier=urn:oid:2.16.840.1.113883.2.9.4.1.3|0fc149a1-c281-4ee9-ad1d-bac00d805811"
    }
  }, {
    "fullUrl": "https://example.com/base/Organization/2.16.840.1.113883.2.9.4.1.1-476c6081-5cd6-4836-9a8a-12e035922578",
    "resource": {
      "resourceType": "Organization",
      "id": "2.16.840.1.113883.2.9.4.1.1-476c6081-5cd6-4836-9a8a-12e035922578",
      "identifier": [ {
        "system": "urn:oid:2.16.840.1.113883.2.9.4.1.1",
        "value": "476c6081-5cd6-4836-9a8a-12e035922578",
        "assigner": {
          "display": "Ministero della Salute"
        }
      } ]
    },
    "request": {
      "method": "PUT",
      "url": "Organization?identifier=urn:oid:2.16.840.1.113883.2.9.4.1.1|476c6081-5cd6-4836-9a8a-12e035922578"
    }
  }, {
    "fullUrl": "https://example.com/base/PractitionerRole/practitioner-role-performer",
    "resource": {
      "resourceType": "PractitionerRole",
      "id": "practitioner-role-performer",
      "identifier": [ {
        "system": "urn:2.16.840.1.113883.2.9.4.3.2-2.16.840.1.113883.2.9.4.1.3",
        "value": "65d6b6ec-8e0a-4d20-8089-3028935e19700fc149a1-c281-4ee9-ad1d-bac00d805811"
      } ],
      "practitioner": {
        "reference": "Practitioner/2.16.840.1.113883.2.9.4.3.2-65d6b6ec-8e0a-4d20-8089-3028935e1970"
      },
      "organization": {
        "reference": "Organization/2.16.840.1.113883.2.9.4.1.3-0fc149a1-c281-4ee9-ad1d-bac00d805811"
      }
    },
    "request": {
      "method": "PUT",
      "url": "PractitionerRole?identifier=urn:2.16.840.1.113883.2.9.4.3.2-2.16.840.1.113883.2.9.4.1.3|65d6b6ec-8e0a-4d20-8089-3028935e19700fc149a1-c281-4ee9-ad1d-bac00d805811"
    }
  }, {
    "fullUrl": "https://example.com/base/Practitioner/2.16.840.1.113883.2.9.4.3.2-9db8c5e5-0e8d-4a13-bbbe-0f1ee9c30d13",
    "resource": {
      "resourceType": "Practitioner",
      "id": "2.16.840.1.113883.2.9.4.3.2-9db8c5e5-0e8d-4a13-bbbe-0f1ee9c30d13",
      "identifier": [ {
        "system": "urn:oid:2.16.840.1.113883.2.9.4.3.2",
        "value": "9db8c5e5-0e8d-4a13-bbbe-0f1ee9c30d13",
        "assigner": {
          "display": "MEF"
        }
      } ],
      "name": [ {
        "family": "Maggi",
        "given": [ "Silvia" ]
      }, {
        "text": "###PRIOR###PARTICIPANT_ASSOCIATEDENTITY###PRIOR###"
      } ],
      "telecom": [ {
        "system": "email",
        "value": "maggi.silvia@gmail.com",
        "use": "home"
      } ],
      "address": [ {
        "line": [ "Via Vittorio Veneto 3" ],
        "city": "Roma",
        "district": "RM",
        "state": "120",
        "postalCode": "00187",
        "country": "100"
      } ]
    },
    "request": {
      "method": "PUT",
      "url": "Practitioner?identifier=urn:oid:2.16.840.1.113883.2.9.4.3.2|9db8c5e5-0e8d-4a13-bbbe-0f1ee9c30d13"
    }
  }, {
    "fullUrl": "https://example.com/base/Observation/has-member-observation2-1",
    "resource": {
      "resourceType": "Observation",
      "id": "has-member-observation2-1",
      "status": "final",
      "code": {
        "coding": [ {
          "system": "urn:oid:2.16.840.1.113883.6.1",
          "version": "LOINC",
          "code": "xxx",
          "display": "xxx"
        } ]
      },
      "subject": {
        "reference": "Patient/2.16.840.1.113883.2.9.4.3.2-4c39ef12-5dfb-4f4c-aa38-3af70e5ac60b"
      },
      "effectiveDateTime": "2022-03-22T22:12:21+01:00",
      "interpretation": [ {
        "coding": [ {
          "system": "urn:oid:2.16.840.1.113883.5.83",
          "version": "sistema di codifica",
          "code": "xxx",
          "display": "xxx"
        } ]
      } ],
      "specimen": {
        "reference": "Specimen/specimen-entry-organizer1"
      }
    },
    "request": {
      "method": "POST",
      "url": "Observation"
    }
  }, {
    "fullUrl": "https://example.com/base/Observation/has-member-observation1-1",
    "resource": {
      "resourceType": "Observation",
      "id": "has-member-observation1-1",
      "status": "final",
      "code": {
        "coding": [ {
          "system": "urn:oid:2.16.840.1.113883.6.1",
          "version": "LOINC",
          "code": "xxx",
          "display": "xxx"
        } ]
      },
      "subject": {
        "reference": "Patient/2.16.840.1.113883.2.9.4.3.2-4c39ef12-5dfb-4f4c-aa38-3af70e5ac60b"
      },
      "effectiveDateTime": "2022-03-22T22:12:21+01:00",
      "interpretation": [ {
        "coding": [ {
          "system": "urn:oid:2.16.840.1.113883.5.83",
          "version": "sistema di codifica",
          "code": "xxx",
          "display": "xxxx"
        } ]
      } ],
      "specimen": {
        "reference": "Specimen/specimen-entry-organizer1"
      }
    },
    "request": {
      "method": "POST",
      "url": "Observation"
    }
  }, {
    "fullUrl": "https://example.com/base/ServiceRequest/service-request1",
    "resource": {
      "resourceType": "ServiceRequest",
      "id": "service-request1",
      "identifier": [ {
        "system": "urn:oid:2.16.840.1.113883.2.9.4.3.9",
        "value": "[NRE]",
        "assigner": {
          "display": "MEF"
        }
      } ],
      "status": "active",
      "intent": "order",
      "priority": "routine",
      "subject": {
        "reference": "Patient/2.16.840.1.113883.2.9.4.3.2-4c39ef12-5dfb-4f4c-aa38-3af70e5ac60b"
      },
      "encounter": {
        "reference": "Encounter/encounter"
      }
    },
    "request": {
      "method": "POST",
      "url": "ServiceRequest"
    }
  }, {
    "fullUrl": "https://example.com/base/PractitionerRole/practitioner-role-responsible-party",
    "resource": {
      "resourceType": "PractitionerRole",
      "id": "practitioner-role-responsible-party",
      "practitioner": {
        "reference": "Practitioner/2.16.840.1.113883.2.9.4.3.2-ac40ca63-2d14-4a31-ad06-c13aa1a19bd1"
      }
    },
    "request": {
      "method": "POST",
      "url": "PractitionerRole"
    }
  }, {
    "fullUrl": "https://example.com/base/PractitioneRole/practitioner-role-encounter1",
    "resource": {
      "resourceType": "PractitionerRole",
      "id": "practitioner-role-encounter1",
      "identifier": [ {
        "system": "urn:2.16.840.1.113883.2.9.4.3.2-2.16.840.1.113883.2.9.4.1.2",
        "value": "9db8c5e5-0e8d-4a13-bbbe-0f1ee9c30d13cd930b6b-130d-492d-8497-7be213b58699"
      } ],
      "practitioner": {
        "reference": "Practitioner/2.16.840.1.113883.2.9.4.3.2-9db8c5e5-0e8d-4a13-bbbe-0f1ee9c30d13"
      },
      "organization": {
        "reference": "Organization/2.16.840.1.113883.2.9.4.1.2-cd930b6b-130d-492d-8497-7be213b58699"
      },
      "code": [ {
        "coding": [ {
          "system": "urn:oid:2.16.840.1.113883.2.9.5.1.88",
          "code": "PRE",
          "display": "Prenotatore"
        } ]
      } ]
    },
    "request": {
      "method": "PUT",
      "url": "PractitionerRole?identifier=urn:2.16.840.1.113883.2.9.4.3.2-2.16.840.1.113883.2.9.4.1.2|9db8c5e5-0e8d-4a13-bbbe-0f1ee9c30d13cd930b6b-130d-492d-8497-7be213b58699"
    }
  }, {
    "fullUrl": "https://example.com/base/PractitionerRole/practitioner-role-authenticator",
    "resource": {
      "resourceType": "PractitionerRole",
      "id": "practitioner-role-authenticator",
      "practitioner": {
        "reference": "Practitioner/2.16.840.1.113883.2.9.4.3.2-eabc6c72-3ff4-4173-a83a-75fdb0ccaf17"
      }
    },
    "request": {
      "method": "POST",
      "url": "PractitionerRole"
    }
  }, {
    "fullUrl": "https://example.com/base/Practitioner/2.16.840.1.113883.2.9.4.3.2-eabc6c72-3ff4-4173-a83a-75fdb0ccaf17",
    "resource": {
      "resourceType": "Practitioner",
      "id": "2.16.840.1.113883.2.9.4.3.2-eabc6c72-3ff4-4173-a83a-75fdb0ccaf17",
      "identifier": [ {
        "system": "urn:oid:2.16.840.1.113883.2.9.4.3.2",
        "value": "eabc6c72-3ff4-4173-a83a-75fdb0ccaf17",
        "assigner": {
          "display": "MEF"
        }
      } ],
      "name": [ {
        "family": "Rossi",
        "given": [ "Roberta" ]
      }, {
        "text": "###PRIOR###AUTHENTICATOR_ASSIGNEDENTITY_ASSIGNEDPERSON###PRIOR###"
      } ],
      "telecom": [ {
        "system": "email",
        "value": "rossi.roberta@gmail.com",
        "use": "home"
      }, {
        "system": "phone",
        "value": "3229982768",
        "use": "home"
      } ],
      "address": [ {
        "line": [ "Via Corvetto 5" ],
        "city": "Roma",
        "district": "RM",
        "state": "120",
        "postalCode": "00164",
        "country": "100"
      } ]
    },
    "request": {
      "method": "PUT",
      "url": "Practitioner?identifier=urn:oid:2.16.840.1.113883.2.9.4.3.2|eabc6c72-3ff4-4173-a83a-75fdb0ccaf17"
    }
  }, {
    "fullUrl": "https://example.com/base/Practitioner/2.16.840.1.113883.2.9.4.3.2-5984a3c2-3af4-4e41-8fe9-fa9271a53bcb",
    "resource": {
      "resourceType": "Practitioner",
      "id": "2.16.840.1.113883.2.9.4.3.2-5984a3c2-3af4-4e41-8fe9-fa9271a53bcb",
      "identifier": [ {
        "system": "urn:oid:2.16.840.1.113883.2.9.4.3.2",
        "value": "5984a3c2-3af4-4e41-8fe9-fa9271a53bcb",
        "assigner": {
          "display": "MEF"
        }
      } ],
      "name": [ {
        "family": "Rossi",
        "given": [ "Maura" ]
      }, {
        "text": "###PRIOR###INTENDEDRECIPIENT_INFORMATIONRECIPIENT###PRIOR###"
      } ],
      "telecom": [ {
        "system": "phone",
        "value": "062866794",
        "use": "work"
      } ]
    },
    "request": {
      "method": "PUT",
      "url": "Practitioner?identifier=urn:oid:2.16.840.1.113883.2.9.4.3.2|5984a3c2-3af4-4e41-8fe9-fa9271a53bcb"
    }
  }, {
    "fullUrl": "https://example.com/base/Location/location-encompassing-encounter",
    "resource": {
      "resourceType": "Location",
      "id": "location-encompassing-encounter",
      "identifier": [ {
        "system": "urn:oid:2.16.840.1.113883.2.9.4.1.6",
        "value": "XXX",
        "assigner": {
          "display": "Ministero della Salute"
        }
      } ],
      "managingOrganization": {
        "reference": "Organization/2.16.840.1.113883.2.9.4.1.2-be591758-d2de-46d8-8a6f-4341916222e8"
      },
      "partOf": {
        "reference": "Location/facility-location"
      }
    },
    "request": {
      "method": "POST",
      "url": "Location"
    }
  }, {
    "fullUrl": "https://example.com/base/Organization/2.16.840.1.113883.2.9.4.1.2-be591758-d2de-46d8-8a6f-4341916222e8",
    "resource": {
      "resourceType": "Organization",
      "id": "2.16.840.1.113883.2.9.4.1.2-be591758-d2de-46d8-8a6f-4341916222e8",
      "identifier": [ {
        "system": "urn:oid:2.16.840.1.113883.2.9.4.1.2",
        "value": "be591758-d2de-46d8-8a6f-4341916222e8",
        "assigner": {
          "display": "Ministero della Salute"
        }
      } ],
      "name": "[nome_presidio]",
      "telecom": [ {
        "system": "phone",
        "value": "0115678965",
        "use": "work"
      } ],
      "partOf": {
        "reference": "Organization/2.16.840.1.113883.2.9.4.1.1-476c6081-5cd6-4836-9a8a-12e035922578"
      }
    },
    "request": {
      "method": "PUT",
      "url": "Organization?identifier=urn:oid:2.16.840.1.113883.2.9.4.1.2|be591758-d2de-46d8-8a6f-4341916222e8"
    }
  }, {
    "fullUrl": "https://example.com/base/Organization/2.16.840.1.113883.2.9.4.1.2-73efe1cc-d069-4969-90fb-f9cb4d91567b",
    "resource": {
      "resourceType": "Organization",
      "id": "2.16.840.1.113883.2.9.4.1.2-73efe1cc-d069-4969-90fb-f9cb4d91567b",
      "identifier": [ {
        "system": "urn:oid:2.16.840.1.113883.2.9.4.1.2",
        "value": "73efe1cc-d069-4969-90fb-f9cb4d91567b",
        "assigner": {
          "display": "Ministero della Salute"
        }
      } ],
      "name": "SAN RAFFAELE NOMENTANA",
      "telecom": [ {
        "system": "phone",
        "value": " 010337288945",
        "use": "work"
      } ],
      "address": [ {
        "line": [ "Via Emilio Praga 39" ],
        "city": "Roma",
        "district": "RM",
        "state": "120",
        "postalCode": "00137",
        "country": "100"
      } ]
    },
    "request": {
      "method": "PUT",
      "url": "Organization?identifier=urn:oid:2.16.840.1.113883.2.9.4.1.2|73efe1cc-d069-4969-90fb-f9cb4d91567b"
    }
  }, {
    "fullUrl": "https://example.com/base/PractitionerRole/practitioner-role-legal-aut",
    "resource": {
      "resourceType": "PractitionerRole",
      "id": "practitioner-role-legal-aut",
      "practitioner": {
        "reference": "Practitioner/2.16.840.1.113883.2.9.4.3.2-d4e85d49-db42-40fb-a307-44871c9f8371"
      }
    },
    "request": {
      "method": "POST",
      "url": "PractitionerRole"
    }
  }, {
    "fullUrl": "https://example.com/base/Practitioner/2.16.840.1.113883.2.9.4.3.2-65d6b6ec-8e0a-4d20-8089-3028935e1970",
    "resource": {
      "resourceType": "Practitioner",
      "id": "2.16.840.1.113883.2.9.4.3.2-65d6b6ec-8e0a-4d20-8089-3028935e1970",
      "identifier": [ {
        "system": "urn:oid:2.16.840.1.113883.2.9.4.3.2",
        "value": "65d6b6ec-8e0a-4d20-8089-3028935e1970",
        "assigner": {
          "display": "MEF"
        }
      } ],
      "name": [ {
        "family": "Rossi",
        "given": [ "Maura" ]
      }, {
        "text": "###PRIOR###SERVICEEVENT_PERFORMER_ASSIGNEDENTITY_ASSIGNEDPERSON###PRIOR###"
      } ]
    },
    "request": {
      "method": "PUT",
      "url": "Practitioner?identifier=urn:oid:2.16.840.1.113883.2.9.4.3.2|65d6b6ec-8e0a-4d20-8089-3028935e1970"
    }
  }, {
    "fullUrl": "https://example.com/base/Encounter/encounter",
    "resource": {
      "resourceType": "Encounter",
      "id": "encounter",
      "status": "unknown",
      "class": {
        "system": "http://terminology.hl7.org/CodeSystem/v3-ActCode",
        "code": "IMP",
        "display": "inpatient encounter"
      },
      "subject": {
        "reference": "Patient/2.16.840.1.113883.2.9.4.3.2-4c39ef12-5dfb-4f4c-aa38-3af70e5ac60b"
      },
      "basedOn": [ {
        "reference": "ServiceRequest/service-request1"
      } ],
      "participant": [ {
        "type": [ {
          "coding": [ {
            "system": "http://terminology.hl7.org/CodeSystem/v3-ParticipationType",
            "code": "REF"
          } ]
        } ],
        "period": {
          "start": "2022-03-21T12:24:37+01:00"
        },
        "individual": {
          "reference": "PractitionerRole/practitioner-role-encounter1"
        }
      }, {
        "type": [ {
          "coding": [ {
            "system": "http://terminology.hl7.org/CodeSystem/v3-ParticipationType",
            "code": "AUTHEN"
          } ]
        } ],
        "individual": {
          "reference": "PractitionerRole/practitioner-role-performer"
        }
      }, {
        "type": [ {
          "coding": [ {
            "system": "http://terminology.hl7.org/CodeSystem/v3-ParticipationType",
            "code": "AUTHEN"
          } ]
        } ],
        "individual": {
          "reference": "PractitionerRole/practitioner-role-performer"
        }
      }, {
        "individual": {
          "reference": "PractitionerRole/practitioner-role-responsible-party"
        }
      } ],
      "period": {
        "start": "2022-03-21T11:24:26+01:00"
      },
      "location": [ {
        "location": {
          "reference": "Location/location-encompassing-encounter"
        }
      } ]
    },
    "request": {
      "method": "POST",
      "url": "Encounter"
    }
  }, {
    "fullUrl": "https://example.com/base/Composition/composition",
    "resource": {
      "resourceType": "Composition",
      "id": "composition",
      "language": "it-IT",
      "extension": [ {
        "url": "http://hl7.org/fhir/StructureDefinition/composition-clinicaldocument-versionNumber",
        "valueString": "1"
      } ],
      "identifier": {
        "system": "urn:oid:2.16.840.1.113883.2.9.2.120.4.4",
        "value": "c030702.TSTSMN63A01F205H.20220325112426.TSS1Tkju",
        "assigner": {
          "display": "Regione Lazio"
        }
      },
      "status": "final",
      "type": {
        "coding": [ {
          "system": "urn:oid:2.16.840.1.113883.6.1",
          "version": "LOINC",
          "code": "11502-2",
          "display": "Referto di laboratorio"
        } ]
      },
      "subject": {
        "reference": "Patient/2.16.840.1.113883.2.9.4.3.2-4c39ef12-5dfb-4f4c-aa38-3af70e5ac60b"
      },
      "encounter": {
        "reference": "Encounter/encounter"
      },
      "date": "2022-03-22T22:12:21+01:00",
      "author": [ {
        "reference": "Practitioner/2.16.840.1.113883.2.9.4.3.2-7638a565-ca9b-4fc3-b924-eacd8906a3ed"
      }, {
        "reference": "Practitioner/2.16.840.1.113883.2.9.4.3.2-b660e258-981f-406f-bdf4-e1a1f928acd8"
      } ],
      "title": " REFERTO DI LABORATORIO",
      "confidentiality": "N",
      "attester": [ {
        "mode": "professional",
        "party": {
          "reference": "Practitioner/2.16.840.1.113883.2.9.4.3.2-5984a3c2-3af4-4e41-8fe9-fa9271a53bcb"
        }
      }, {
        "mode": "legal",
        "time": "2022-03-25T11:00:00+01:00",
        "party": {
          "reference": "PractitionerRole/practitioner-role-legal-aut"
        }
      }, {
        "mode": "professional",
        "time": "2022-03-22T22:12:21+01:00",
        "party": {
          "reference": "PractitionerRole/practitioner-role-authenticator"
        }
      } ],
      "custodian": {
        "reference": "Organization/2.16.840.1.113883.2.9.4.1.2-73efe1cc-d069-4969-90fb-f9cb4d91567b"
      },
      "event": [ {
        "period": {
          "start": "2022-03-22T22:12:21+01:00"
        },
        "detail": [ {
          "reference": "PractitionerRole/practitioner-role-performer"
        } ]
      } ],
      "section": [ {
        "code": {
          "coding": [ {
            "system": "urn:oid:2.16.840.1.113883.6.1",
            "version": "LOINC",
            "code": "18717-9",
            "display": "xxx"
          } ]
        },
        "section": [ {
          "title": "XXXX",
          "code": {
            "coding": [ {
              "system": "urn:oid:2.16.840.1.113883.6.1",
              "code": "18717-9",
              "display": "xxx"
            } ]
          },
          "entry": [ {
            "reference": "DiagnosticReport/diagnostic-report"
          } ]
        }, {
          "title": "xxx",
          "code": {
            "coding": [ {
              "system": "urn:oid:2.16.840.1.113883.6.1",
              "code": "xxx",
              "display": "xxx"
            } ]
          },
          "entry": [ {
            "reference": "DiagnosticReport/diagnostic-report"
          } ]
        } ]
      } ]
    },
    "request": {
      "method": "POST",
      "url": "Composition"
    }
  }, {
    "fullUrl": "https://example.com/base/Organization/2.16.840.1.113883.2.9.4.1.2-cd930b6b-130d-492d-8497-7be213b58699",
    "resource": {
      "resourceType": "Organization",
      "id": "2.16.840.1.113883.2.9.4.1.2-cd930b6b-130d-492d-8497-7be213b58699",
      "identifier": [ {
        "system": "urn:oid:2.16.840.1.113883.2.9.4.1.2",
        "value": "cd930b6b-130d-492d-8497-7be213b58699",
        "assigner": {
          "display": "Ministero della Salute"
        }
      } ],
      "telecom": [ {
        "system": "phone",
        "value": " 010337288945",
        "use": "work"
      } ],
      "address": [ {
        "line": [ "Via Emilio Praga 39" ],
        "city": "Roma",
        "district": "RM",
        "state": "120",
        "postalCode": "00137",
        "country": "100"
      } ]
    },
    "request": {
      "method": "PUT",
      "url": "Organization?identifier=urn:oid:2.16.840.1.113883.2.9.4.1.2|cd930b6b-130d-492d-8497-7be213b58699"
    }
  }, {
    "fullUrl": "https://example.com/base/Observation/observation-entry2",
    "resource": {
      "resourceType": "Observation",
      "id": "observation-entry2",
      "status": "final",
      "code": {
        "coding": [ {
          "system": "urn:oid:"
        } ]
      },
      "effectiveDateTime": "2022-03-22T22:12:21+01:00",
      "specimen": {
        "reference": "Specimen/specimen-entry-organizer2"
      },
      "hasMember": [ {
        "reference": "Observation/has-member-observation2-1"
      } ]
    },
    "request": {
      "method": "POST",
      "url": "Observation"
    }
  }, {
    "fullUrl": "https://example.com/base/Location/facility-location",
    "resource": {
      "resourceType": "Location",
      "id": "facility-location"
    },
    "request": {
      "method": "POST",
      "url": "Location"
    }
  }, {
    "fullUrl": "https://example.com/base/Observation/observation-entry1",
    "resource": {
      "resourceType": "Observation",
      "id": "observation-entry1",
      "status": "final",
      "code": {
        "coding": [ {
          "system": "urn:oid:"
        } ]
      },
      "effectiveDateTime": "2022-03-22T22:12:21",
      "specimen": {
        "reference": "Specimen/specimen-entry-organizer1"
      },
      "hasMember": [ {
        "reference": "Observation/has-member-observation1-1"
      } ]
    },
    "request": {
      "method": "POST",
      "url": "Observation"
    }
  }, {
    "fullUrl": "https://example.com/base/DocumentReference/document-reference",
    "resource": {
      "resourceType": "DocumentReference",
      "id": "document-reference",
      "masterIdentifier": {
        "value": "identificativoDoc"
      },
      "identifier": [ {
        "id": "Document00"
      } ],
      "status": "current",
      "type": {
        "coding": [ {
          "system": "urn:oid:2.16.840.1.113883.6.1",
          "code": "11502-2"
        } ]
      },
      "category": [ {
        "coding": [ {
          "system": "http://terminology.hl7.org/CodeSystem/media-category",
          "code": "tipoDocumentoLivAlto"
        } ]
      } ],
      "subject": {
        "reference": "Patient/2.16.840.1.113883.2.9.4.3.2-4c39ef12-5dfb-4f4c-aa38-3af70e5ac60b"
      },
      "date": "2022-10-25T12:40:02.071+02:00",
      "author": [ {
        "reference": "Practitioner/2.16.840.1.113883.2.9.4.3.2-7638a565-ca9b-4fc3-b924-eacd8906a3ed"
      } ],
      "custodian": {
        "reference": "Organization/2.16.840.1.113883.2.9.4.1.2-73efe1cc-d069-4969-90fb-f9cb4d91567b"
      },
      "securityLabel": [ {
        "coding": [ {
          "system": "http://terminology.hl7.org/CodeSystem/v3-Confidentiality",
          "code": "N"
        } ]
      } ],
      "content": [ {
        "attachment": {
          "contentType": "application/pdf",
          "language": "it-IT",
          "url": "repositoryUniqueID",
          "size": 1000,
          "hash": "ZjdiZjVjZGEtNjJhYi00YWE0LWE4YmEtYWQyMzlhZTY4Yjkw"
        },
        "format": {
          "system": "urn:oid:2.16.840.1.113883.2.9.10.1.1",
          "code": "1.3"
        }
      } ],
      "context": {
        "facilityType": {
          "coding": [ {
            "system": "urn:oid",
            "code": "facilityTypeCode"
          } ]
        },
        "practiceSetting": {
          "coding": [ {
            "system": "urn:oid",
            "code": "practiceSettingCode"
          } ]
        },
        "sourcePatientInfo": {
          "reference": "Patient/2.16.840.1.113883.2.9.4.3.2-4c39ef12-5dfb-4f4c-aa38-3af70e5ac60b"
        },
        "related": [ {
          "reference": "Composition/composition"
        } ]
      }
    },
    "request": {
      "method": "POST",
      "url": "DocumentReference"
    }
  }, {
    "fullUrl": "https://example.com/base/Specimen/specimen-entry-organizer1",
    "resource": {
      "resourceType": "Specimen",
      "id": "specimen-entry-organizer1",
      "type": {
        "coding": [ {
          "system": "urn:oid:1.1.1.1.1.1.1.1.1.1",
          "code": "xxxxxx",
          "display": "xxx"
        } ]
      },
      "subject": {
        "reference": "Patient/2.16.840.1.113883.2.9.4.3.2-4c39ef12-5dfb-4f4c-aa38-3af70e5ac60b"
      }
    },
    "request": {
      "method": "POST",
      "url": "Specimen"
    }
  }, {
    "fullUrl": "https://example.com/base/Practitioner/2.16.840.1.113883.2.9.4.3.2-ac40ca63-2d14-4a31-ad06-c13aa1a19bd1",
    "resource": {
      "resourceType": "Practitioner",
      "id": "2.16.840.1.113883.2.9.4.3.2-ac40ca63-2d14-4a31-ad06-c13aa1a19bd1",
      "identifier": [ {
        "system": "urn:oid:2.16.840.1.113883.2.9.4.3.2",
        "value": "ac40ca63-2d14-4a31-ad06-c13aa1a19bd1",
        "assigner": {
          "display": "MEF"
        }
      } ],
      "name": [ {
        "family": "Turri",
        "given": [ "Silvia" ]
      }, {
        "text": "###PRIOR###RESPONSIBLEPARTY_ASSIGNEDENTITY_ASSIGNEDPERSON###PRIOR###"
      } ]
    },
    "request": {
      "method": "PUT",
      "url": "Practitioner?identifier=urn:oid:2.16.840.1.113883.2.9.4.3.2|ac40ca63-2d14-4a31-ad06-c13aa1a19bd1"
    }
  }, {
    "fullUrl": "https://example.com/base/Practitioner/2.16.840.1.113883.2.9.4.3.2-b660e258-981f-406f-bdf4-e1a1f928acd8",
    "resource": {
      "resourceType": "Practitioner",
      "id": "2.16.840.1.113883.2.9.4.3.2-b660e258-981f-406f-bdf4-e1a1f928acd8",
      "identifier": [ {
        "system": "urn:oid:2.16.840.1.113883.2.9.4.3.2",
        "value": "b660e258-981f-406f-bdf4-e1a1f928acd8",
        "assigner": {
          "display": "MEF"
        }
      } ],
      "name": [ {
        "family": "Esposito",
        "given": [ "Edoardo" ]
      }, {
        "text": "###PRIOR###ASSIGNEDENTITY_ASSIGNEDPERSON###PRIOR###"
      } ]
    },
    "request": {
      "method": "PUT",
      "url": "Practitioner?identifier=urn:oid:2.16.840.1.113883.2.9.4.3.2|b660e258-981f-406f-bdf4-e1a1f928acd8"
    }
  }, {
    "fullUrl": "https://example.com/base/Specimen/specimen-entry-organizer2",
    "resource": {
      "resourceType": "Specimen",
      "id": "specimen-entry-organizer2",
      "type": {
        "coding": [ {
          "system": "urn:oid:1.1.1.1.1.1.1.1",
          "code": "xxxxxx",
          "display": "xxx"
        } ]
      },
      "subject": {
        "reference": "Patient/2.16.840.1.113883.2.9.4.3.2-4c39ef12-5dfb-4f4c-aa38-3af70e5ac60b"
      }
    },
    "request": {
      "method": "POST",
      "url": "Specimen"
    }
  } ]
}