{
  "resourceType": "Bundle",
  "id": "father",
  "implicitRules": "2.16.840.1.113883.1.3",
  "language": "it-IT",
  "identifier": {
    "system": "urn:oid:2.16.840.1.113883.2.9.2.120.4.4",
    "value": "030702.TSTSMN63A01F205H.20220325112426.OQlvTq1J"
  },
  "type": "transaction",
  "entry": [ {
    "fullUrl": "https://example.com/base/Organization/2.16.840.1.113883.2.9.4.1.2-7247d0e6-710e-46ac-be95-76e5c0c47a85",
    "resource": {
      "resourceType": "Organization",
      "id": "2.16.840.1.113883.2.9.4.1.2-7247d0e6-710e-46ac-be95-76e5c0c47a85",
      "identifier": [ {
        "system": "urn:oid:2.16.840.1.113883.2.9.4.1.2",
        "value": "7247d0e6-710e-46ac-be95-76e5c0c47a85",
        "assigner": {
          "display": "Ministero della Salute"
        }
      } ],
      "name": "[nome_presidio]",
      "telecom": [ {
        "system": "phone",
        "value": "0115678965",
        "use": "work"
      } ],
      "partOf": {
        "reference": "Organization/2.16.840.1.113883.2.9.4.1.1-5d971f71-f91e-4946-9733-aed75e7809a3"
      }
    },
    "request": {
      "method": "PUT",
      "url": "Organization?identifier=urn:oid:2.16.840.1.113883.2.9.4.1.2|7247d0e6-710e-46ac-be95-76e5c0c47a85"
    }
  }, {
    "fullUrl": "https://example.com/base/Observation/organizer-act-section",
    "resource": {
      "resourceType": "Observation",
      "id": "organizer-act-section",
      "status": "final",
      "code": {
        "coding": [ {
          "system": "urn:oid:"
        } ]
      },
      "effectiveDateTime": "2022-03-22T22:12:21",
      "specimen": {
        "reference": "Specimen/specimen-entry-organizer"
      },
      "hasMember": [ {
        "reference": "Observation/has-member-observation1"
      }, {
        "reference": "Observation/has-member-observation2"
      } ]
    },
    "request": {
      "method": "POST",
      "url": "Observation"
    }
  }, {
    "fullUrl": "https://example.com/base/Practitioner/2.16.840.1.113883.2.9.4.3.2-f6192e3e-913a-457e-88f6-d2dfdb31cc53",
    "resource": {
      "resourceType": "Practitioner",
      "id": "2.16.840.1.113883.2.9.4.3.2-f6192e3e-913a-457e-88f6-d2dfdb31cc53",
      "identifier": [ {
        "system": "urn:oid:2.16.840.1.113883.2.9.4.3.2",
        "value": "f6192e3e-913a-457e-88f6-d2dfdb31cc53",
        "assigner": {
          "display": "MEF"
        }
      } ],
      "name": [ {
        "family": "Esposito",
        "given": [ "Edoardo" ]
      }, {
        "text": "###PRIOR###ASSIGNEDENTITY_ASSIGNEDPERSON###PRIOR###"
      } ]
    },
    "request": {
      "method": "PUT",
      "url": "Practitioner?identifier=urn:oid:2.16.840.1.113883.2.9.4.3.2|f6192e3e-913a-457e-88f6-d2dfdb31cc53"
    }
  }, {
    "fullUrl": "https://example.com/base/Practitioner/2.16.840.1.113883.2.9.4.3.2-b2c1049a-1c21-4be1-85bd-1f4020b3381a",
    "resource": {
      "resourceType": "Practitioner",
      "id": "2.16.840.1.113883.2.9.4.3.2-b2c1049a-1c21-4be1-85bd-1f4020b3381a",
      "identifier": [ {
        "system": "urn:oid:2.16.840.1.113883.2.9.4.3.2",
        "value": "b2c1049a-1c21-4be1-85bd-1f4020b3381a",
        "assigner": {
          "display": "MEF"
        }
      } ],
      "name": [ {
        "family": "Rossi",
        "given": [ "Maura" ]
      }, {
        "text": "###PRIOR###SERVICEEVENT_PERFORMER_ASSIGNEDENTITY_ASSIGNEDPERSON###PRIOR###"
      } ]
    },
    "request": {
      "method": "PUT",
      "url": "Practitioner?identifier=urn:oid:2.16.840.1.113883.2.9.4.3.2|b2c1049a-1c21-4be1-85bd-1f4020b3381a"
    }
  }, {
    "fullUrl": "https://example.com/base/Organization/2.16.840.1.113883.2.9.4.1.3-d868e06b-20d3-42eb-ac27-7d0fed0c2b10",
    "resource": {
      "resourceType": "Organization",
      "id": "2.16.840.1.113883.2.9.4.1.3-d868e06b-20d3-42eb-ac27-7d0fed0c2b10",
      "identifier": [ {
        "system": "urn:oid:2.16.840.1.113883.2.9.4.1.3",
        "value": "d868e06b-20d3-42eb-ac27-7d0fed0c2b10",
        "assigner": {
          "display": "Ministero della Salute"
        }
      } ],
      "name": "Nuovo Ospedale S.Agostino (MO)",
      "partOf": {
        "reference": "Organization/2.16.840.1.113883.2.9.4.1.1-815bf115-26c2-4eae-a746-aee9a5c37281"
      }
    },
    "request": {
      "method": "PUT",
      "url": "Organization?identifier=urn:oid:2.16.840.1.113883.2.9.4.1.3|d868e06b-20d3-42eb-ac27-7d0fed0c2b10"
    }
  }, {
    "fullUrl": "https://example.com/base/Practitioner/2.16.840.1.113883.2.9.4.3.2-440a497d-d2cb-4efb-8b99-b51b805ffb19",
    "resource": {
      "resourceType": "Practitioner",
      "id": "2.16.840.1.113883.2.9.4.3.2-440a497d-d2cb-4efb-8b99-b51b805ffb19",
      "identifier": [ {
        "system": "urn:oid:2.16.840.1.113883.2.9.4.3.2",
        "value": "440a497d-d2cb-4efb-8b99-b51b805ffb19",
        "assigner": {
          "display": "MEF"
        }
      } ],
      "name": [ {
        "family": "Turri",
        "given": [ "Silvia" ]
      }, {
        "text": "###PRIOR###RESPONSIBLEPARTY_ASSIGNEDENTITY_ASSIGNEDPERSON###PRIOR###"
      } ]
    },
    "request": {
      "method": "PUT",
      "url": "Practitioner?identifier=urn:oid:2.16.840.1.113883.2.9.4.3.2|440a497d-d2cb-4efb-8b99-b51b805ffb19"
    }
  }, {
    "fullUrl": "https://example.com/base/Specimen/specimen-has-member-observation2",
    "resource": {
      "resourceType": "Specimen",
      "id": "specimen-has-member-observation2"
    },
    "request": {
      "method": "POST",
      "url": "Specimen"
    }
  }, {
    "fullUrl": "https://example.com/base/Specimen/specimen-has-member-observation1",
    "resource": {
      "resourceType": "Specimen",
      "id": "specimen-has-member-observation1"
    },
    "request": {
      "method": "POST",
      "url": "Specimen"
    }
  }, {
    "fullUrl": "https://example.com/base/DiagnosticReport/diagnostic-report",
    "resource": {
      "resourceType": "DiagnosticReport",
      "id": "diagnostic-report",
      "text": {
        "status": "generated",
        "div": "<div xmlns=\"http://www.w3.org/1999/xhtml\"><div class=\"hapiHeaderText\"> xxxx </div><table class=\"hapiPropertyTable\"><tbody><tr><td>Status</td><td>FINAL</td></tr></tbody></table><table class=\"hapiTableOfValues\"><thead><tr><td>Name</td><td>Value</td><td>Interpretation</td><td>Reference Range</td><td>Status</td></tr></thead><tbody><tr class=\"hapiTableOfValuesRowOdd\"><td> ? </td><td/><td/><td/><td>FINAL</td></tr></tbody></table></div>"
      },
      "status": "final",
      "code": {
        "coding": [ {
          "system": "urn:oid:2.16.840.1.113883.6.1",
          "code": "xxx",
          "display": "xxxx"
        } ]
      },
      "subject": {
        "reference": "Patient/2.16.840.1.113883.2.9.4.3.2-ff09a4af-3753-4b18-9a1f-b82b9f1c8f5e"
      },
      "encounter": {
        "reference": "Encounter/encounter"
      },
      "effectiveDateTime": "2022-03-22T22:12:21+01:00",
      "result": [ {
        "reference": "Observation/organizer-act-section"
      } ]
    },
    "request": {
      "method": "POST",
      "url": "DiagnosticReport"
    }
  }, {
    "fullUrl": "https://example.com/base/Organization/2.16.840.1.113883.2.9.4.1.2-e5eaf383-8d32-4cfe-8211-507bb6fa549f",
    "resource": {
      "resourceType": "Organization",
      "id": "2.16.840.1.113883.2.9.4.1.2-e5eaf383-8d32-4cfe-8211-507bb6fa549f",
      "identifier": [ {
        "system": "urn:oid:2.16.840.1.113883.2.9.4.1.2",
        "value": "e5eaf383-8d32-4cfe-8211-507bb6fa549f",
        "assigner": {
          "display": "Ministero della Salute"
        }
      } ],
      "name": "SAN RAFFAELE NOMENTANA",
      "telecom": [ {
        "system": "phone",
        "value": " 010337288945",
        "use": "work"
      } ],
      "address": [ {
        "line": [ "Via Emilio Praga 39" ],
        "city": "Roma",
        "district": "RM",
        "state": "120",
        "postalCode": "00137",
        "country": "100"
      } ]
    },
    "request": {
      "method": "PUT",
      "url": "Organization?identifier=urn:oid:2.16.840.1.113883.2.9.4.1.2|e5eaf383-8d32-4cfe-8211-507bb6fa549f"
    }
  }, {
    "fullUrl": "https://example.com/base/PractitionerRole/practitioner-role-performer",
    "resource": {
      "resourceType": "PractitionerRole",
      "id": "practitioner-role-performer",
      "identifier": [ {
        "system": "urn:2.16.840.1.113883.2.9.4.3.2-2.16.840.1.113883.2.9.4.1.3",
        "value": "b2c1049a-1c21-4be1-85bd-1f4020b3381ad868e06b-20d3-42eb-ac27-7d0fed0c2b10"
      } ],
      "practitioner": {
        "reference": "Practitioner/2.16.840.1.113883.2.9.4.3.2-b2c1049a-1c21-4be1-85bd-1f4020b3381a"
      },
      "organization": {
        "reference": "Organization/2.16.840.1.113883.2.9.4.1.3-d868e06b-20d3-42eb-ac27-7d0fed0c2b10"
      }
    },
    "request": {
      "method": "PUT",
      "url": "PractitionerRole?identifier=urn:2.16.840.1.113883.2.9.4.3.2-2.16.840.1.113883.2.9.4.1.3|b2c1049a-1c21-4be1-85bd-1f4020b3381ad868e06b-20d3-42eb-ac27-7d0fed0c2b10"
    }
  }, {
    "fullUrl": "https://example.com/base/Organization/2.16.840.1.113883.2.9.4.1.1-815bf115-26c2-4eae-a746-aee9a5c37281",
    "resource": {
      "resourceType": "Organization",
      "id": "2.16.840.1.113883.2.9.4.1.1-815bf115-26c2-4eae-a746-aee9a5c37281",
      "identifier": [ {
        "system": "urn:oid:2.16.840.1.113883.2.9.4.1.1",
        "value": "815bf115-26c2-4eae-a746-aee9a5c37281",
        "assigner": {
          "display": "Ministero della Salute"
        }
      } ]
    },
    "request": {
      "method": "PUT",
      "url": "Organization?identifier=urn:oid:2.16.840.1.113883.2.9.4.1.1|815bf115-26c2-4eae-a746-aee9a5c37281"
    }
  }, {
    "fullUrl": "https://example.com/base/ServiceRequest/service-request1",
    "resource": {
      "resourceType": "ServiceRequest",
      "id": "service-request1",
      "identifier": [ {
        "system": "urn:oid:2.16.840.1.113883.2.9.4.3.9",
        "value": "[NRE]",
        "assigner": {
          "display": "MEF"
        }
      } ],
      "status": "active",
      "intent": "order",
      "priority": "routine",
      "subject": {
        "reference": "Patient/2.16.840.1.113883.2.9.4.3.2-ff09a4af-3753-4b18-9a1f-b82b9f1c8f5e"
      },
      "encounter": {
        "reference": "Encounter/encounter"
      }
    },
    "request": {
      "method": "POST",
      "url": "ServiceRequest"
    }
  }, {
    "fullUrl": "https://example.com/base/Patient/2.16.840.1.113883.2.9.4.3.2-ff09a4af-3753-4b18-9a1f-b82b9f1c8f5e",
    "resource": {
      "resourceType": "Patient",
      "id": "2.16.840.1.113883.2.9.4.3.2-ff09a4af-3753-4b18-9a1f-b82b9f1c8f5e",
      "text": {
        "status": "generated",
        "div": "<div xmlns=\"http://www.w3.org/1999/xhtml\"><div class=\"hapiHeaderText\">Mario <b>ROSSI </b></div><table class=\"hapiPropertyTable\"><tbody><tr><td>Identifier</td><td>ff09a4af-3753-4b18-9a1f-b82b9f1c8f5e</td></tr><tr><td>Address</td><td><span>Via Aurora 12 </span><br/><span>Roma </span><span>120 </span><span>100 </span></td></tr><tr><td>Date of birth</td><td><span>20 dicembre 1981</span></td></tr></tbody></table></div>"
      },
      "extension": [ {
        "url": "http://hl7.org/fhir/StructureDefinition/patient-birthPlace",
        "valueAddress": {
          "use": "home",
          "city": "Roma",
          "country": "100"
        }
      } ],
      "identifier": [ {
        "system": "urn:oid:2.16.840.1.113883.2.9.4.3.2",
        "value": "ff09a4af-3753-4b18-9a1f-b82b9f1c8f5e",
        "assigner": {
          "display": "MEF"
        }
      } ],
      "name": [ {
        "family": "Rossi",
        "given": [ "Mario" ]
      } ],
      "telecom": [ {
        "system": "email",
        "value": "mario.rossi@gmail.com",
        "use": "home"
      }, {
        "system": "phone",
        "value": "+39333224456",
        "use": "mobile"
      } ],
      "gender": "male",
      "birthDate": "1981-12-20",
      "address": [ {
        "use": "home",
        "line": [ "Via Aurora 12" ],
        "city": "Roma",
        "district": "RM",
        "state": "120",
        "postalCode": "00187",
        "country": "100"
      }, {
        "use": "home",
        "line": [ "Via Canevari 12B" ],
        "city": "Roma",
        "district": "RM",
        "state": "120",
        "postalCode": "00138",
        "country": "100"
      } ]
    },
    "request": {
      "method": "PUT",
      "url": "Patient?identifier=urn:oid:2.16.840.1.113883.2.9.4.3.2|ff09a4af-3753-4b18-9a1f-b82b9f1c8f5e"
    }
  }, {
    "fullUrl": "https://example.com/base/PractitionerRole/practitioner-role-responsible-party",
    "resource": {
      "resourceType": "PractitionerRole",
      "id": "practitioner-role-responsible-party",
      "practitioner": {
        "reference": "Practitioner/2.16.840.1.113883.2.9.4.3.2-440a497d-d2cb-4efb-8b99-b51b805ffb19"
      }
    },
    "request": {
      "method": "POST",
      "url": "PractitionerRole"
    }
  }, {
    "fullUrl": "https://example.com/base/PractitioneRole/practitioner-role-encounter1",
    "resource": {
      "resourceType": "PractitionerRole",
      "id": "practitioner-role-encounter1",
      "identifier": [ {
        "system": "urn:2.16.840.1.113883.2.9.4.3.2-2.16.840.1.113883.2.9.4.1.2",
        "value": "1a882d75-c50c-4603-b4a7-dee7cf79b5511e9e5032-c631-4803-ad2d-678843cde8bc"
      } ],
      "practitioner": {
        "reference": "Practitioner/2.16.840.1.113883.2.9.4.3.2-1a882d75-c50c-4603-b4a7-dee7cf79b551"
      },
      "organization": {
        "reference": "Organization/2.16.840.1.113883.2.9.4.1.2-1e9e5032-c631-4803-ad2d-678843cde8bc"
      },
      "code": [ {
        "coding": [ {
          "system": "urn:oid:2.16.840.1.113883.2.9.5.1.88",
          "code": "PRE",
          "display": "Prenotatore"
        } ]
      } ]
    },
    "request": {
      "method": "PUT",
      "url": "PractitionerRole?identifier=urn:2.16.840.1.113883.2.9.4.3.2-2.16.840.1.113883.2.9.4.1.2|1a882d75-c50c-4603-b4a7-dee7cf79b5511e9e5032-c631-4803-ad2d-678843cde8bc"
    }
  }, {
    "fullUrl": "https://example.com/base/PractitionerRole/practitioner-role-authenticator",
    "resource": {
      "resourceType": "PractitionerRole",
      "id": "practitioner-role-authenticator",
      "practitioner": {
        "reference": "Practitioner/2.16.840.1.113883.2.9.4.3.2-c78842af-352b-4655-a5cf-0967ee47eeb9"
      }
    },
    "request": {
      "method": "POST",
      "url": "PractitionerRole"
    }
  }, {
    "fullUrl": "https://example.com/base/Practitioner/2.16.840.1.113883.2.9.4.3.2-1a882d75-c50c-4603-b4a7-dee7cf79b551",
    "resource": {
      "resourceType": "Practitioner",
      "id": "2.16.840.1.113883.2.9.4.3.2-1a882d75-c50c-4603-b4a7-dee7cf79b551",
      "identifier": [ {
        "system": "urn:oid:2.16.840.1.113883.2.9.4.3.2",
        "value": "1a882d75-c50c-4603-b4a7-dee7cf79b551",
        "assigner": {
          "display": "MEF"
        }
      } ],
      "name": [ {
        "family": "Maggi",
        "given": [ "Silvia" ]
      }, {
        "text": "###PRIOR###PARTICIPANT_ASSOCIATEDENTITY###PRIOR###"
      } ],
      "telecom": [ {
        "system": "email",
        "value": "maggi.silvia@gmail.com",
        "use": "home"
      } ],
      "address": [ {
        "line": [ "Via Vittorio Veneto 3" ],
        "city": "Roma",
        "district": "RM",
        "state": "120",
        "postalCode": "00187",
        "country": "100"
      } ]
    },
    "request": {
      "method": "PUT",
      "url": "Practitioner?identifier=urn:oid:2.16.840.1.113883.2.9.4.3.2|1a882d75-c50c-4603-b4a7-dee7cf79b551"
    }
  }, {
    "fullUrl": "https://example.com/base/Practitioner/2.16.840.1.113883.2.9.4.3.2-cce2f1b4-b4b0-4ef5-8824-9a2f9ff5c7ba",
    "resource": {
      "resourceType": "Practitioner",
      "id": "2.16.840.1.113883.2.9.4.3.2-cce2f1b4-b4b0-4ef5-8824-9a2f9ff5c7ba",
      "identifier": [ {
        "system": "urn:oid:2.16.840.1.113883.2.9.4.3.2",
        "value": "cce2f1b4-b4b0-4ef5-8824-9a2f9ff5c7ba",
        "assigner": {
          "display": "MEF"
        }
      } ],
      "name": [ {
        "family": "Bianchi",
        "given": [ "Francesco" ],
        "prefix": [ "Specialista" ]
      }, {
        "text": "###PRIOR###ASSIGNEDAUTHOR_ASSIGNEDPERSON###PRIOR###"
      } ],
      "telecom": [ {
        "system": "email",
        "value": "francesco.bianchi@gmail.com",
        "use": "work"
      }, {
        "system": "phone",
        "value": "+393441834678",
        "use": "work"
      } ],
      "address": [ {
        "line": [ "Via Milano 7" ],
        "city": "Roma",
        "district": "RM",
        "state": "120",
        "postalCode": "00184",
        "country": "100"
      } ]
    },
    "request": {
      "method": "PUT",
      "url": "Practitioner?identifier=urn:oid:2.16.840.1.113883.2.9.4.3.2|cce2f1b4-b4b0-4ef5-8824-9a2f9ff5c7ba"
    }
  }, {
    "fullUrl": "https://example.com/base/Practitioner/2.16.840.1.113883.2.9.4.3.2-4ee3f8ee-b509-4748-bc10-e660204aa898",
    "resource": {
      "resourceType": "Practitioner",
      "id": "2.16.840.1.113883.2.9.4.3.2-4ee3f8ee-b509-4748-bc10-e660204aa898",
      "identifier": [ {
        "system": "urn:oid:2.16.840.1.113883.2.9.4.3.2",
        "value": "4ee3f8ee-b509-4748-bc10-e660204aa898",
        "assigner": {
          "display": "MEF"
        }
      } ],
      "name": [ {
        "family": "Rossi",
        "given": [ "Maura" ]
      }, {
        "text": "###PRIOR###INTENDEDRECIPIENT_INFORMATIONRECIPIENT###PRIOR###"
      } ],
      "telecom": [ {
        "system": "phone",
        "value": "062866794",
        "use": "work"
      } ]
    },
    "request": {
      "method": "PUT",
      "url": "Practitioner?identifier=urn:oid:2.16.840.1.113883.2.9.4.3.2|4ee3f8ee-b509-4748-bc10-e660204aa898"
    }
  }, {
    "fullUrl": "https://example.com/base/Organization/2.16.840.1.113883.2.9.4.1.1-5d971f71-f91e-4946-9733-aed75e7809a3",
    "resource": {
      "resourceType": "Organization",
      "id": "2.16.840.1.113883.2.9.4.1.1-5d971f71-f91e-4946-9733-aed75e7809a3",
      "identifier": [ {
        "system": "urn:oid:2.16.840.1.113883.2.9.4.1.1",
        "value": "5d971f71-f91e-4946-9733-aed75e7809a3",
        "assigner": {
          "display": "Ministero della Salute"
        }
      } ]
    },
    "request": {
      "method": "PUT",
      "url": "Organization?identifier=urn:oid:2.16.840.1.113883.2.9.4.1.1|5d971f71-f91e-4946-9733-aed75e7809a3"
    }
  }, {
    "fullUrl": "https://example.com/base/Practitioner/2.16.840.1.113883.2.9.4.3.2-c78842af-352b-4655-a5cf-0967ee47eeb9",
    "resource": {
      "resourceType": "Practitioner",
      "id": "2.16.840.1.113883.2.9.4.3.2-c78842af-352b-4655-a5cf-0967ee47eeb9",
      "identifier": [ {
        "system": "urn:oid:2.16.840.1.113883.2.9.4.3.2",
        "value": "c78842af-352b-4655-a5cf-0967ee47eeb9",
        "assigner": {
          "display": "MEF"
        }
      } ],
      "name": [ {
        "family": "Rossi",
        "given": [ "Roberta" ]
      }, {
        "text": "###PRIOR###AUTHENTICATOR_ASSIGNEDENTITY_ASSIGNEDPERSON###PRIOR###"
      } ],
      "telecom": [ {
        "system": "email",
        "value": "rossi.roberta@gmail.com",
        "use": "home"
      }, {
        "system": "phone",
        "value": "3229982768",
        "use": "home"
      } ],
      "address": [ {
        "line": [ "Via Corvetto 5" ],
        "city": "Roma",
        "district": "RM",
        "state": "120",
        "postalCode": "00164",
        "country": "100"
      } ]
    },
    "request": {
      "method": "PUT",
      "url": "Practitioner?identifier=urn:oid:2.16.840.1.113883.2.9.4.3.2|c78842af-352b-4655-a5cf-0967ee47eeb9"
    }
  }, {
    "fullUrl": "https://example.com/base/Location/location-encompassing-encounter",
    "resource": {
      "resourceType": "Location",
      "id": "location-encompassing-encounter",
      "identifier": [ {
        "system": "urn:oid:2.16.840.1.113883.2.9.4.1.6",
        "value": "XXX",
        "assigner": {
          "display": "Ministero della Salute"
        }
      } ],
      "managingOrganization": {
        "reference": "Organization/2.16.840.1.113883.2.9.4.1.2-7247d0e6-710e-46ac-be95-76e5c0c47a85"
      },
      "partOf": {
        "reference": "Location/facility-location"
      }
    },
    "request": {
      "method": "POST",
      "url": "Location"
    }
  }, {
    "fullUrl": "https://example.com/base/PractitionerRole/practitioner-role-legal-aut",
    "resource": {
      "resourceType": "PractitionerRole",
      "id": "practitioner-role-legal-aut",
      "practitioner": {
        "reference": "Practitioner/2.16.840.1.113883.2.9.4.3.2-a8483692-111c-4f65-8f71-b5d9e260b5cb"
      }
    },
    "request": {
      "method": "POST",
      "url": "PractitionerRole"
    }
  }, {
    "fullUrl": "https://example.com/base/Organization/2.16.840.1.113883.2.9.4.1.2-1e9e5032-c631-4803-ad2d-678843cde8bc",
    "resource": {
      "resourceType": "Organization",
      "id": "2.16.840.1.113883.2.9.4.1.2-1e9e5032-c631-4803-ad2d-678843cde8bc",
      "identifier": [ {
        "system": "urn:oid:2.16.840.1.113883.2.9.4.1.2",
        "value": "1e9e5032-c631-4803-ad2d-678843cde8bc",
        "assigner": {
          "display": "Ministero della Salute"
        }
      } ],
      "telecom": [ {
        "system": "phone",
        "value": " 010337288945",
        "use": "work"
      } ],
      "address": [ {
        "line": [ "Via Emilio Praga 39" ],
        "city": "Roma",
        "district": "RM",
        "state": "120",
        "postalCode": "00137",
        "country": "100"
      } ]
    },
    "request": {
      "method": "PUT",
      "url": "Organization?identifier=urn:oid:2.16.840.1.113883.2.9.4.1.2|1e9e5032-c631-4803-ad2d-678843cde8bc"
    }
  }, {
    "fullUrl": "https://example.com/base/Observation/has-member-observation1",
    "resource": {
      "resourceType": "Observation",
      "id": "has-member-observation1",
      "status": "final",
      "code": {
        "coding": [ {
          "system": "urn:oid:2.16.840.1.113883.6.1",
          "version": "LOINC",
          "code": "xxx",
          "display": "xxx"
        } ]
      },
      "subject": {
        "reference": "Patient/2.16.840.1.113883.2.9.4.3.2-ff09a4af-3753-4b18-9a1f-b82b9f1c8f5e"
      },
      "effectiveDateTime": "2022-03-22T22:12:21+01:00",
      "interpretation": [ {
        "coding": [ {
          "system": "urn:oid:2.16.840.1.113883.5.83",
          "version": "sistema di codifica",
          "code": "xxx",
          "display": "xxxx"
        } ]
      } ],
      "specimen": {
        "reference": "Specimen/specimen-has-member-observation1"
      }
    },
    "request": {
      "method": "POST",
      "url": "Observation"
    }
  }, {
    "fullUrl": "https://example.com/base/Observation/has-member-observation2",
    "resource": {
      "resourceType": "Observation",
      "id": "has-member-observation2",
      "status": "final",
      "code": {
        "coding": [ {
          "system": "urn:oid:2.16.840.1.113883.6.1",
          "version": "LOINC",
          "code": "xxx",
          "display": "xxx"
        } ]
      },
      "subject": {
        "reference": "Patient/2.16.840.1.113883.2.9.4.3.2-ff09a4af-3753-4b18-9a1f-b82b9f1c8f5e"
      },
      "effectiveDateTime": "2022-03-22T22:12:21+01:00",
      "interpretation": [ {
        "coding": [ {
          "system": "urn:oid:2.16.840.1.113883.5.83",
          "version": "sistema di codifica",
          "code": "xxx",
          "display": "xxx"
        } ]
      } ],
      "specimen": {
        "reference": "Specimen/specimen-has-member-observation2"
      }
    },
    "request": {
      "method": "POST",
      "url": "Observation"
    }
  }, {
    "fullUrl": "https://example.com/base/Encounter/encounter",
    "resource": {
      "resourceType": "Encounter",
      "id": "encounter",
      "status": "unknown",
      "class": {
        "system": "http://terminology.hl7.org/CodeSystem/v3-ActCode",
        "code": "IMP",
        "display": "inpatient encounter"
      },
      "subject": {
        "reference": "Patient/2.16.840.1.113883.2.9.4.3.2-ff09a4af-3753-4b18-9a1f-b82b9f1c8f5e"
      },
      "basedOn": [ {
        "reference": "ServiceRequest/service-request1"
      } ],
      "participant": [ {
        "type": [ {
          "coding": [ {
            "system": "http://terminology.hl7.org/CodeSystem/v3-ParticipationType",
            "code": "REF"
          } ]
        } ],
        "period": {
          "start": "2022-03-21T12:24:37+01:00"
        },
        "individual": {
          "reference": "PractitionerRole/practitioner-role-encounter1"
        }
      }, {
        "type": [ {
          "coding": [ {
            "system": "http://terminology.hl7.org/CodeSystem/v3-ParticipationType",
            "code": "AUTHEN"
          } ]
        } ],
        "individual": {
          "reference": "PractitionerRole/practitioner-role-performer"
        }
      }, {
        "type": [ {
          "coding": [ {
            "system": "http://terminology.hl7.org/CodeSystem/v3-ParticipationType",
            "code": "AUTHEN"
          } ]
        } ],
        "individual": {
          "reference": "PractitionerRole/practitioner-role-performer"
        }
      }, {
        "individual": {
          "reference": "PractitionerRole/practitioner-role-responsible-party"
        }
      } ],
      "period": {
        "start": "2022-03-21T11:24:26+01:00"
      },
      "location": [ {
        "location": {
          "reference": "Location/location-encompassing-encounter"
        }
      } ]
    },
    "request": {
      "method": "POST",
      "url": "Encounter"
    }
  }, {
    "fullUrl": "https://example.com/base/Composition/composition",
    "resource": {
      "resourceType": "Composition",
      "id": "composition",
      "language": "it-IT",
      "extension": [ {
        "url": "http://hl7.org/fhir/StructureDefinition/composition-clinicaldocument-versionNumber",
        "valueString": "1"
      } ],
      "identifier": {
        "system": "urn:oid:2.16.840.1.113883.2.9.2.120.4.4",
        "value": "c030702.TSTSMN63A01F205H.20220325112426.TSS1Tkju",
        "assigner": {
          "display": "Regione Lazio"
        }
      },
      "status": "final",
      "type": {
        "coding": [ {
          "system": "urn:oid:2.16.840.1.113883.6.1",
          "version": "LOINC",
          "code": "11502-2",
          "display": "Referto di laboratorio"
        } ]
      },
      "subject": {
        "reference": "Patient/2.16.840.1.113883.2.9.4.3.2-ff09a4af-3753-4b18-9a1f-b82b9f1c8f5e"
      },
      "encounter": {
        "reference": "Encounter/encounter"
      },
      "date": "2022-03-22T22:12:21+01:00",
      "author": [ {
        "reference": "Practitioner/2.16.840.1.113883.2.9.4.3.2-cce2f1b4-b4b0-4ef5-8824-9a2f9ff5c7ba"
      }, {
        "reference": "Practitioner/2.16.840.1.113883.2.9.4.3.2-f6192e3e-913a-457e-88f6-d2dfdb31cc53"
      } ],
      "title": " REFERTO DI LABORATORIO",
      "confidentiality": "N",
      "attester": [ {
        "mode": "professional",
        "party": {
          "reference": "Practitioner/2.16.840.1.113883.2.9.4.3.2-4ee3f8ee-b509-4748-bc10-e660204aa898"
        }
      }, {
        "mode": "legal",
        "time": "2022-03-25T11:00:00+01:00",
        "party": {
          "reference": "PractitionerRole/practitioner-role-legal-aut"
        }
      }, {
        "mode": "professional",
        "time": "2022-03-22T22:12:21+01:00",
        "party": {
          "reference": "PractitionerRole/practitioner-role-authenticator"
        }
      } ],
      "custodian": {
        "reference": "Organization/2.16.840.1.113883.2.9.4.1.2-e5eaf383-8d32-4cfe-8211-507bb6fa549f"
      },
      "event": [ {
        "period": {
          "start": "2022-03-22T22:12:21+01:00"
        },
        "detail": [ {
          "reference": "PractitionerRole/practitioner-role-performer"
        } ]
      } ],
      "section": [ {
        "code": {
          "coding": [ {
            "system": "urn:oid:2.16.840.1.113883.6.1",
            "version": "LOINC",
            "code": "18717-9",
            "display": "xxx"
          } ]
        },
        "section": [ {
          "title": "XXXX",
          "code": {
            "coding": [ {
              "system": "urn:oid:2.16.840.1.113883.6.1",
              "code": "18717-9",
              "display": "xxx"
            } ]
          },
          "text": {
            "status": "generated",
            "div": "<div xmlns=\"http://hl7.org/fhir\" value=\"xxxxx\"/>"
          },
          "entry": [ {
            "reference": "DiagnosticReport/diagnostic-report"
          } ]
        }, {
          "title": "xxx",
          "code": {
            "coding": [ {
              "system": "urn:oid:2.16.840.1.113883.6.1",
              "code": "xxx",
              "display": "xxx"
            } ]
          },
          "text": {
            "status": "generated",
            "div": "<div xmlns=\"http://hl7.org/fhir\" value=\"xxxxx\"/>"
          },
          "entry": [ {
            "reference": "DiagnosticReport/diagnostic-report"
          } ]
        } ]
      } ]
    },
    "request": {
      "method": "POST",
      "url": "Composition"
    }
  }, {
    "fullUrl": "https://example.com/base/Location/facility-location",
    "resource": {
      "resourceType": "Location",
      "id": "facility-location"
    },
    "request": {
      "method": "POST",
      "url": "Location"
    }
  }, {
    "fullUrl": "https://example.com/base/Practitioner/2.16.840.1.113883.2.9.4.3.2-a8483692-111c-4f65-8f71-b5d9e260b5cb",
    "resource": {
      "resourceType": "Practitioner",
      "id": "2.16.840.1.113883.2.9.4.3.2-a8483692-111c-4f65-8f71-b5d9e260b5cb",
      "identifier": [ {
        "system": "urn:oid:2.16.840.1.113883.2.9.4.3.2",
        "value": "a8483692-111c-4f65-8f71-b5d9e260b5cb",
        "assigner": {
          "display": "MEF"
        }
      } ],
      "name": [ {
        "family": "Bianchi",
        "given": [ "Francesco" ],
        "prefix": [ "Specialista" ]
      }, {
        "text": "###PRIOR###LEGALAUTHENTICATOR_ASSIGNEDENTITY_ASSIGNEDPERSON###PRIOR###"
      } ],
      "telecom": [ {
        "system": "email",
        "value": "francesco.bianchi@gmail.com",
        "use": "work"
      }, {
        "system": "phone",
        "value": "+393441834678",
        "use": "work"
      } ],
      "address": [ {
        "line": [ "Via Milano 7" ],
        "city": "Roma",
        "district": "RM",
        "state": "120",
        "postalCode": "00184",
        "country": "100"
      } ]
    },
    "request": {
      "method": "PUT",
      "url": "Practitioner?identifier=urn:oid:2.16.840.1.113883.2.9.4.3.2|a8483692-111c-4f65-8f71-b5d9e260b5cb"
    }
  }, {
    "fullUrl": "https://example.com/base/DocumentReference/document-reference",
    "resource": {
      "resourceType": "DocumentReference",
      "id": "document-reference",
      "masterIdentifier": {
        "id": "identificativoDoc"
      },
      "identifier": [ {
        "id": "Document00"
      } ],
      "status": "current",
      "type": {
        "coding": [ {
          "system": "urn:oid:2.16.840.1.113883.6.1",
          "code": "11502-2"
        } ]
      },
      "category": [ {
        "coding": [ {
          "system": "http://terminology.hl7.org/CodeSystem/media-category",
          "code": "tipoDocumentoLivAlto"
        } ]
      } ],
      "subject": {
        "reference": "Patient/2.16.840.1.113883.2.9.4.3.2-ff09a4af-3753-4b18-9a1f-b82b9f1c8f5e"
      },
      "date": "2022-09-29T09:53:47.288+02:00",
      "author": [ {
        "reference": "Practitioner/2.16.840.1.113883.2.9.4.3.2-cce2f1b4-b4b0-4ef5-8824-9a2f9ff5c7ba"
      } ],
      "custodian": {
        "reference": "Organization/2.16.840.1.113883.2.9.4.1.2-e5eaf383-8d32-4cfe-8211-507bb6fa549f"
      },
      "securityLabel": [ {
        "coding": [ {
          "system": "http://terminology.hl7.org/CodeSystem/v3-Confidentiality",
          "code": "N"
        } ]
      } ],
      "content": [ {
        "attachment": {
          "contentType": "application/pdf",
          "language": "it-IT",
          "url": "repositoryUniqueID",
          "size": 1000,
          "hash": "ZWMzMDFlZTMtN2M2MS00ODY0LTkwNWQtYjZiYmJjZGE3MWFh"
        },
        "format": {
          "system": "urn:oid:2.16.840.1.113883.2.9.10.1.1",
          "code": "1.3"
        }
      } ],
      "context": {
        "facilityType": {
          "coding": [ {
            "system": "http://example.org",
            "code": "facilityTypeCode"
          } ]
        },
        "practiceSetting": {
          "coding": [ {
            "system": "http://example.org",
            "code": "practiceSettingCode"
          } ]
        },
        "sourcePatientInfo": {
          "reference": "Patient/2.16.840.1.113883.2.9.4.3.2-ff09a4af-3753-4b18-9a1f-b82b9f1c8f5e"
        },
        "related": [ {
          "reference": "Composition/composition"
        } ]
      }
    },
    "request": {
      "method": "POST",
      "url": "DocumentReference"
    }
  }, {
    "fullUrl": "https://example.com/base/Specimen/specimen-entry-organizer",
    "resource": {
      "resourceType": "Specimen",
      "id": "specimen-entry-organizer",
      "type": {
        "coding": [ {
          "system": "urn:oid:1.1.1.1.1.1.1.1.1.1",
          "code": "xxxxxx",
          "display": "xxx"
        } ]
      },
      "subject": {
        "reference": "Patient/2.16.840.1.113883.2.9.4.3.2-ff09a4af-3753-4b18-9a1f-b82b9f1c8f5e"
      }
    },
    "request": {
      "method": "POST",
      "url": "Specimen"
    }
  } ]
}