{
  "resourceType": "Bundle",
  "id": "father",
  "implicitRules": "2.16.840.1.113883.1.3",
  "language": "it-IT",
  "identifier": {
    "system": "urn:oid:2.16.840.1.113883.2.9.2.120.4.4",
    "value": "030702.TSTSMN63A01F205H.20220325112426.OQlvTq1J"
  },
  "type": "transaction",
  "entry": [ {
    "fullUrl": "https://example.com/base/ServiceRequest/service-request1",
    "resource": {
      "resourceType": "ServiceRequest",
      "id": "service-request1",
      "identifier": [ {
        "system": "urn:oid:2.16.840.1.113883.2.9.4.3.8",
        "value": "NRE",
        "assigner": {
          "display": "Ministero dell’Economia e delle Finanze"
        }
      } ],
      "status": "active",
      "intent": "order",
      "priority": "routine",
      "subject": {
        "reference": "Patient/2.16.840.1.113883.2.9.4.3.8-RSSMRA81T20H501L"
      },
      "encounter": {
        "reference": "Encounter/encounter"
      }
    },
    "request": {
      "method": "POST",
      "url": "ServiceRequest"
    }
  }, {
    "fullUrl": "https://example.com/base/PractitioneRole/practitioner-role-encounter1",
    "resource": {
      "resourceType": "PractitionerRole",
      "id": "practitioner-role-encounter1",
      "code": [ {
        "coding": [ {
          "system": "urn:oid:2.16.840.1.113883.2.9.5.1.88",
          "code": "PRE",
          "display": "Prenotatore"
        } ]
      } ]
    },
    "request": {
      "method": "POST",
      "url": "PractitionerRole"
    }
  }, {
    "fullUrl": "https://example.com/base/Specimen/specimen-entry-observation1",
    "resource": {
      "resourceType": "Specimen",
      "id": "specimen-entry-observation1",
      "type": {
        "coding": [ {
          "system": "urn:oid:2.16.840.1.113883.5.129",
          "code": "UR",
          "display": "Urine"
        } ]
      },
      "subject": {
        "reference": "Patient/2.16.840.1.113883.2.9.4.3.8-RSSMRA81T20H501L"
      }
    },
    "request": {
      "method": "POST",
      "url": "Specimen"
    }
  }, {
    "fullUrl": "https://example.com/base/Organization/2.16.840.1.113883.2.9.4.1.1-120905",
    "resource": {
      "resourceType": "Organization",
      "id": "2.16.840.1.113883.2.9.4.1.1-120905",
      "identifier": [ {
        "system": "urn:oid:2.16.840.1.113883.2.9.4.1.1",
        "value": "120905",
        "assigner": {
          "display": "Policlinico Gemelli"
        }
      } ]
    },
    "request": {
      "method": "PUT",
      "url": "Organization?identifier=urn:oid:2.16.840.1.113883.2.9.4.1.1|120905"
    }
  }, {
    "fullUrl": "https://example.com/base/Observation/observation-act-section1",
    "resource": {
      "resourceType": "Observation",
      "id": "observation-act-section1",
      "status": "final",
      "code": {
        "coding": [ {
          "system": "urn:oid:2.16.840.1.113883.6.1",
          "version": "LOINC",
          "code": "14957-5",
          "display": "Microalbumin Massa/Volume in Urine"
        } ]
      },
      "subject": {
        "reference": "Patient/2.16.840.1.113883.2.9.4.3.8-RSSMRA81T20H501L"
      },
      "encounter": {
        "reference": "Encounter/encounter"
      },
      "effectiveDateTime": "2022-03-22T10:30:10+01:00",
      "valueQuantity": {
        "value": 16.00,
        "unit": "mg/L"
      },
      "interpretation": [ {
        "coding": [ {
          "system": "http://terminology.hl7.org/CodeSystem/v3-ObservationInterpretation",
          "code": "N"
        } ]
      } ],
      "specimen": {
        "reference": "Specimen/specimen-entry-observation1"
      },
      "referenceRange": [ {
        "low": {
          "value": 0.00,
          "unit": "mg/L"
        },
        "high": {
          "value": 20.00,
          "unit": "mg/L"
        }
      } ]
    },
    "request": {
      "method": "POST",
      "url": "Observation"
    }
  }, {
    "fullUrl": "https://example.com/base/Patient/2.16.840.1.113883.2.9.4.3.8-RSSMRA81T20H501L",
    "resource": {
      "resourceType": "Patient",
      "id": "2.16.840.1.113883.2.9.4.3.8-RSSMRA81T20H501L",
      "text": {
        "status": "generated",
        "div": "<div xmlns=\"http://www.w3.org/1999/xhtml\"><div class=\"hapiHeaderText\">Mario <b>ROSSI </b></div><table class=\"hapiPropertyTable\"><tbody><tr><td>Identifier</td><td>RSSMRA81T20H501L</td></tr><tr><td>Address</td><td><span>Via Lombardia 31 </span><br/><span>Roma </span><span>Italia </span></td></tr><tr><td>Date of birth</td><td><span>20 dicembre 1981</span></td></tr></tbody></table></div>"
      },
      "extension": [ {
        "url": "http://hl7.org/fhir/StructureDefinition/patient-birthPlace",
        "valueAddress": {
          "use": "home",
          "line": [ "Via Ludovisi, 21" ],
          "city": "Roma",
          "postalCode": "00187",
          "country": "Italia"
        }
      } ],
      "identifier": [ {
        "system": "urn:oid:2.16.840.1.113883.2.9.4.3.8",
        "value": "RSSMRA81T20H501L",
        "assigner": {
          "display": "Ministero dell’Economia e delle Finanze"
        }
      } ],
      "name": [ {
        "family": "Rossi",
        "given": [ "Mario" ]
      } ],
      "telecom": [ {
        "system": "phone",
        "value": "0861783310",
        "use": "home"
      }, {
        "system": "phone",
        "value": "+39 3445812567",
        "use": "mobile"
      } ],
      "gender": "male",
      "birthDate": "1981-12-20",
      "address": [ {
        "use": "home",
        "line": [ "Via Lombardia 31" ],
        "city": "Roma",
        "district": "Roma",
        "postalCode": "00187",
        "country": "Italia"
      }, {
        "use": "home",
        "line": [ "Via Emilia 2" ],
        "city": "Roma",
        "district": "Roma",
        "postalCode": "00187",
        "country": "Italia"
      } ]
    },
    "request": {
      "method": "PUT",
      "url": "Patient?identifier=urn:oid:2.16.840.1.113883.2.9.4.3.8|RSSMRA81T20H501L"
    }
  }, {
    "fullUrl": "https://example.com/base/Practitioner/2.16.840.1.113883.2.9.4.3.8-VRDGPP80A01H501U",
    "resource": {
      "resourceType": "Practitioner",
      "id": "2.16.840.1.113883.2.9.4.3.8-VRDGPP80A01H501U",
      "identifier": [ {
        "system": "urn:oid:2.16.840.1.113883.2.9.4.3.8",
        "value": "VRDGPP80A01H501U",
        "assigner": {
          "display": "Ministero dell’Economia e delle Finanze"
        }
      } ],
      "name": [ {
        "family": "Verdi",
        "given": [ "Giuseppe" ],
        "prefix": [ "dott" ]
      }, {
        "text": "###PRIOR###INTENDEDRECIPIENT_INFORMATIONRECIPIENT###PRIOR###"
      } ]
    },
    "request": {
      "method": "PUT",
      "url": "Practitioner?identifier=urn:oid:2.16.840.1.113883.2.9.4.3.8|VRDGPP80A01H501U"
    }
  }, {
    "fullUrl": "https://example.com/base/PractitionerRole/practitioner-role-legal-aut",
    "resource": {
      "resourceType": "PractitionerRole",
      "id": "practitioner-role-legal-aut",
      "identifier": [ {
        "system": "urn:2.16.840.1.113883.2.9.4.3.8-2.16.840.1.113883.2.9.4.1.1",
        "value": "BNCFNC68R09F839P120905"
      } ],
      "practitioner": {
        "reference": "Practitioner/2.16.840.1.113883.2.9.4.3.8-BNCFNC68R09F839P"
      },
      "organization": {
        "reference": "Organization/2.16.840.1.113883.2.9.4.1.1-120905"
      }
    },
    "request": {
      "method": "PUT",
      "url": "PractitionerRole?identifier=urn:2.16.840.1.113883.2.9.4.3.8-2.16.840.1.113883.2.9.4.1.1|BNCFNC68R09F839P120905"
    }
  }, {
    "fullUrl": "https://example.com/base/Practitioner/2.16.840.1.113883.2.9.4.3.8-BNCFNC68R09F839P",
    "resource": {
      "resourceType": "Practitioner",
      "id": "2.16.840.1.113883.2.9.4.3.8-BNCFNC68R09F839P",
      "identifier": [ {
        "system": "urn:oid:2.16.840.1.113883.2.9.4.3.8",
        "value": "BNCFNC68R09F839P",
        "assigner": {
          "display": "Ministero dell’Economia e delle Finanze"
        }
      } ],
      "name": [ {
        "family": "Bianchi",
        "given": [ "FRANCESCO" ],
        "prefix": [ "Specialista" ]
      }, {
        "text": "###PRIOR###ASSIGNEDAUTHOR_ASSIGNEDPERSON###PRIOR###"
      } ],
      "telecom": [ {
        "system": "phone",
        "value": "+39 3441834678",
        "use": "work"
      }, {
        "system": "email",
        "value": "francesco.bianchi@gmail.com",
        "use": "work"
      } ]
    },
    "request": {
      "method": "PUT",
      "url": "Practitioner?identifier=urn:oid:2.16.840.1.113883.2.9.4.3.8|BNCFNC68R09F839P"
    }
  }, {
    "fullUrl": "https://example.com/base/Encounter/encounter",
    "resource": {
      "resourceType": "Encounter",
      "id": "encounter",
      "status": "unknown",
      "class": {
        "system": "http://terminology.hl7.org/CodeSystem/v3-ActCode",
        "code": "IMP",
        "display": "inpatient encounter"
      },
      "subject": {
        "reference": "Patient/2.16.840.1.113883.2.9.4.3.8-RSSMRA81T20H501L"
      },
      "basedOn": [ {
        "reference": "ServiceRequest/service-request1"
      } ],
      "participant": [ {
        "type": [ {
          "coding": [ {
            "system": "http://terminology.hl7.org/CodeSystem/v3-ParticipationType",
            "code": "REF"
          } ]
        } ],
        "period": {
          "start": "2022-01-09T12:24:37+01:00"
        },
        "individual": {
          "reference": "PractitionerRole/practitioner-role-encounter1"
        }
      }, {
        "type": [ {
          "coding": [ {
            "system": "http://terminology.hl7.org/CodeSystem/v3-ParticipationType",
            "code": "AUTHEN"
          } ]
        } ],
        "individual": {
          "reference": "PractitionerRole/practitioner-role-performer"
        }
      } ]
    },
    "request": {
      "method": "POST",
      "url": "Encounter"
    }
  }, {
    "fullUrl": "https://example.com/base/Composition/composition",
    "resource": {
      "resourceType": "Composition",
      "id": "composition",
      "language": "it-IT",
      "extension": [ {
        "url": "http://hl7.org/fhir/StructureDefinition/composition-clinicaldocument-versionNumber",
        "valueString": "1"
      } ],
      "identifier": {
        "system": "urn:oid:2.16.840.1.113883.2.9.2.120.4.4",
        "value": "c030702.TSTSMN63A01F205H.20220325112426.TSS1Tkju",
        "assigner": {
          "display": "Regione Lazio"
        }
      },
      "status": "final",
      "type": {
        "coding": [ {
          "system": "urn:oid:2.16.840.1.113883.6.1",
          "version": "LOINC",
          "code": "11502-2",
          "display": "Referto di laboratorio"
        } ]
      },
      "subject": {
        "reference": "Patient/2.16.840.1.113883.2.9.4.3.8-RSSMRA81T20H501L"
      },
      "encounter": {
        "reference": "Encounter/encounter"
      },
      "date": "2022-03-22T22:12:21+01:00",
      "author": [ {
        "reference": "Practitioner/2.16.840.1.113883.2.9.4.3.8-BNCFNC68R09F839P"
      } ],
      "title": "REFERTO DI LABORATORIO",
      "confidentiality": "N",
      "attester": [ {
        "mode": "official",
        "party": {
          "reference": "Organization/2.16.840.1.113883.2.9.4.1.1-120905"
        }
      }, {
        "mode": "professional",
        "party": {
          "reference": "Practitioner/2.16.840.1.113883.2.9.4.3.8-VRDGPP80A01H501U"
        }
      }, {
        "mode": "legal",
        "time": "2022-03-22T22:12:21+01:00",
        "party": {
          "reference": "PractitionerRole/practitioner-role-legal-aut"
        }
      } ],
      "custodian": {
        "reference": "Organization/2.16.840.1.113883.2.9.4.3.8-NRE"
      },
      "event": [ {
        "period": {
          "start": "2022-03-22T22:12:21+01:00"
        },
        "detail": [ {
          "reference": "PractitionerRole/practitioner-role-performer"
        } ]
      } ],
      "section": [ {
        "code": {
          "coding": [ {
            "system": "urn:oid:2.16.840.1.113883.6.1",
            "version": "LOINC",
            "code": "18729-4",
            "display": "Esame delle urine"
          } ]
        },
        "section": [ {
          "title": "Esami delle urine",
          "code": {
            "coding": [ {
              "system": "urn:oid:2.16.840.1.113883.6.1",
              "code": "14957-5",
              "display": "Microalbumin Massa/Volume in Urine"
            } ]
          },
          "entry": [ {
            "reference": "DiagnosticReport/diagnostic-report"
          } ]
        } ]
      } ]
    },
    "request": {
      "method": "POST",
      "url": "Composition"
    }
  }, {
    "fullUrl": "https://example.com/base/DocumentReference/document-reference",
    "resource": {
      "resourceType": "DocumentReference",
      "id": "document-reference",
      "masterIdentifier": {
        "id": "identificativoDoc"
      },
      "identifier": [ {
        "id": "Document00"
      } ],
      "status": "current",
      "type": {
        "coding": [ {
          "system": "urn:oid:2.16.840.1.113883.6.1",
          "code": "11502-2"
        } ]
      },
      "category": [ {
        "coding": [ {
          "system": "http://terminology.hl7.org/CodeSystem/media-category",
          "code": "tipoDocumentoLivAlto"
        } ]
      } ],
      "subject": {
        "reference": "Patient/2.16.840.1.113883.2.9.4.3.8-RSSMRA81T20H501L"
      },
      "date": "2022-09-23T20:45:08.045+02:00",
      "author": [ {
        "reference": "Practitioner/2.16.840.1.113883.2.9.4.3.8-BNCFNC68R09F839P"
      } ],
      "custodian": {
        "reference": "Organization/2.16.840.1.113883.2.9.4.3.8-NRE"
      },
      "securityLabel": [ {
        "coding": [ {
          "system": "http://terminology.hl7.org/CodeSystem/v3-Confidentiality",
          "code": "N"
        } ]
      } ],
      "content": [ {
        "attachment": {
          "contentType": "application/pdf",
          "language": "it-IT",
          "url": "repositoryUniqueID",
          "size": 1000,
          "hash": "MDQyYTdkNzMtMWQzOS00ZmVlLWI2NDctOGI4MWIyY2I2MWU3"
        },
        "format": {
          "system": "urn:oid:2.16.840.1.113883.2.9.10.1.1",
          "code": "1.3"
        }
      } ],
      "context": {
        "facilityType": {
          "coding": [ {
            "system": "http://example.org",
            "code": "facilityTypeCode"
          } ]
        },
        "practiceSetting": {
          "coding": [ {
            "system": "http://example.org",
            "code": "practiceSettingCode"
          } ]
        },
        "sourcePatientInfo": {
          "reference": "Patient/2.16.840.1.113883.2.9.4.3.8-RSSMRA81T20H501L"
        },
        "related": [ {
          "reference": "Composition/composition"
        } ]
      }
    },
    "request": {
      "method": "POST",
      "url": "DocumentReference"
    }
  }, {
    "fullUrl": "https://example.com/base/DiagnosticReport/diagnostic-report",
    "resource": {
      "resourceType": "DiagnosticReport",
      "id": "diagnostic-report",
      "text": {
        "status": "generated",
        "div": "<div xmlns=\"http://www.w3.org/1999/xhtml\"><div class=\"hapiHeaderText\"> Microalbumin Massa/Volume in Urine </div><table class=\"hapiPropertyTable\"><tbody><tr><td>Status</td><td>FINAL</td></tr></tbody></table><table class=\"hapiTableOfValues\"><thead><tr><td>Name</td><td>Value</td><td>Interpretation</td><td>Reference Range</td><td>Status</td></tr></thead><tbody><tr class=\"hapiTableOfValuesRowOdd\"><td> Microalbumin Massa/Volume in Urine </td><td>16.00 mg/L </td><td/><td> 0.00 mg/L - 20.00 mg/L </td><td>FINAL</td></tr><tr class=\"hapiTableOfValuesRowOdd\"><td colspan=\"5\"/></tr></tbody></table></div>"
      },
      "status": "final",
      "code": {
        "coding": [ {
          "system": "urn:oid:2.16.840.1.113883.6.1",
          "code": "14957-5",
          "display": "Microalbumin Massa/Volume in Urine"
        } ]
      },
      "subject": {
        "reference": "Patient/2.16.840.1.113883.2.9.4.3.8-RSSMRA81T20H501L"
      },
      "encounter": {
        "reference": "Encounter/encounter"
      },
      "effectiveDateTime": "2022-03-22T22:12:21+01:00",
      "result": [ {
        "reference": "Observation/observation-act-section1"
      } ]
    },
    "request": {
      "method": "POST",
      "url": "DiagnosticReport"
    }
  }, {
    "fullUrl": "https://example.com/base/Organization/2.16.840.1.113883.2.9.4.3.8-NRE",
    "resource": {
      "resourceType": "Organization",
      "id": "2.16.840.1.113883.2.9.4.3.8-NRE",
      "identifier": [ {
        "system": "urn:oid:2.16.840.1.113883.2.9.4.3.8",
        "value": "NRE",
        "assigner": {
          "display": "Ministero dell’Economia e delle Finanze"
        }
      } ]
    },
    "request": {
      "method": "PUT",
      "url": "Organization?identifier=urn:oid:2.16.840.1.113883.2.9.4.3.8|NRE"
    }
  }, {
    "fullUrl": "https://example.com/base/PractitionerRole/practitioner-role-performer",
    "resource": {
      "resourceType": "PractitionerRole",
      "id": "practitioner-role-performer",
      "identifier": [ {
        "system": "urn:2.16.840.1.113883.2.9.4.3.8-2.16.840.1.113883.2.9.4.1.1",
        "value": "VRDGPP80A01H501U120905"
      } ],
      "practitioner": {
        "reference": "Practitioner/2.16.840.1.113883.2.9.4.3.8-VRDGPP80A01H501U"
      },
      "organization": {
        "reference": "Organization/2.16.840.1.113883.2.9.4.1.1-120905"
      }
    },
    "request": {
      "method": "PUT",
      "url": "PractitionerRole?identifier=urn:2.16.840.1.113883.2.9.4.3.8-2.16.840.1.113883.2.9.4.1.1|VRDGPP80A01H501U120905"
    }
  } ]
}